stim_word,stim_color,trial_loop.thisRepN,trial_loop.thisTrialN,trial_loop.thisN,trial_loop.thisIndex,thisRow.t,notes,welcome.started,welcome_txt.started,welcome.stopped,instructions.started,instructions_txt.started,key_resp.started,instructions.stopped,key_resp.keys,key_resp.rt,key_resp.duration,init_fix.started,circle.started,circle.stopped,init_fix.stopped,stim.started,trial_txt.started,response.started,stim.stopped,response.keys,response.rt,response.duration,isi.started,polygon.started,polygon.stopped,isi.stopped,participant,date,expName,psychopyVersion,frameRate,expStart,
,,,,,,,,0.00962890000664629,0.01340560000971891,1.0069994000077713,1.007008400018094,1.0239291000179946,1.0239291000179946,2.2086308000143617,return,1.183403700008057,None,,,,,,,,,,,,,,,,1,2024-02-19_12h05.35.273,stroop,2023.2.3,60.03363084098647,2024-02-19 12h05.46.228663 +0100,
rojo,green,0,0,0,9,3.223487400013255,,,,,,,,,,,,2.208653100009542,2.2234525000094436,3.223487400013255,3.2071058000146877,3.212712000007741,3.223487400013255,3.223487400013255,3.70744550001109,left,0.4814314999966882,None,3.7078537000052165,3.72309580000001,4.040420100005576,4.024028500018176,1,2024-02-19_12h05.35.273,stroop,2023.2.3,60.03363084098647,2024-02-19 12h05.46.228663 +0100,
rojo,green,0,1,1,6,4.040420100005576,,,,,,,,,,,,,,,,4.024244000000181,4.040420100005576,4.040420100005576,4.491660200001206,left,0.44975739999790676,None,4.4918889999971725,4.506706300016958,4.823488699999871,4.807265900017228,1,2024-02-19_12h05.35.273,stroop,2023.2.3,60.03363084098647,2024-02-19 12h05.46.228663 +0100,
verde,green,0,2,2,12,4.823488699999871,,,,,,,,,,,,,,,,4.80748119999771,4.823488699999871,4.823488699999871,5.241115600016201,left,0.4063998000056017,None,5.241413200012175,5.2568930000124965,5.57360190001782,5.557325400004629,1,2024-02-19_12h05.35.273,stroop,2023.2.3,60.03363084098647,2024-02-19 12h05.46.228663 +0100,
rojo,green,0,3,3,7,5.57360190001782,,,,,,,,,,,,,,,,5.557540500012692,5.57360190001782,5.57360190001782,5.941211199999088,left,0.36248239999986254,None,5.941463900002418,5.95683700000518,6.2735489000042435,6.25733720001881,1,2024-02-19_12h05.35.273,stroop,2023.2.3,60.03363084098647,2024-02-19 12h05.46.228663 +0100,
verde,green,0,4,4,13,6.2735489000042435,,,,,,,,,,,,,,,,6.257569600013085,6.2735489000042435,6.2735489000042435,6.657655299990438,left,0.37670409999554977,None,6.658079000015277,6.67349000001559,6.990290000016103,6.974152300012065,1,2024-02-19_12h05.35.273,stroop,2023.2.3,60.03363084098647,2024-02-19 12h05.46.228663 +0100,
verde,red,0,5,5,17,6.990290000016103,,,,,,,,,,,,,,,,6.974369100003969,6.990290000016103,6.990290000016103,7.324488600017503,right,0.3310827000241261,None,7.324708100000862,7.340145099995425,7.656815900001675,7.640878200007137,1,2024-02-19_12h05.35.273,stroop,2023.2.3,60.03363084098647,2024-02-19 12h05.46.228663 +0100,
verde,red,0,6,6,18,7.656815900001675,,,,,,,,,,,,,,,,7.641225100000156,7.656815900001675,7.656815900001675,8.041077000001678,right,0.37245870000333525,None,8.041331699991133,8.056851000001188,8.373452600004384,8.357476400007727,1,2024-02-19_12h05.35.273,stroop,2023.2.3,60.03363084098647,2024-02-19 12h05.46.228663 +0100,
rojo,red,0,7,7,3,8.373452600004384,,,,,,,,,,,,,,,,8.357691700017313,8.373452600004384,8.373452600004384,8.757456299994374,right,0.3678737999871373,None,8.75768420001259,8.773291099991184,9.09004609999829,9.073740299994824,1,2024-02-19_12h05.35.273,stroop,2023.2.3,60.03363084098647,2024-02-19 12h05.46.228663 +0100,
rojo,green,0,8,8,5,9.09004609999829,,,,,,,,,,,,,,,,9.073998900013976,9.09004609999829,9.09004609999829,9.52407129999483,right,0.42673440001090057,None,9.524346199992578,9.5399594999908,9.856729999999516,9.840709200012498,1,2024-02-19_12h05.35.273,stroop,2023.2.3,60.03363084098647,2024-02-19 12h05.46.228663 +0100,
rojo,red,0,9,9,1,9.856729999999516,,,,,,,,,,,,,,,,9.840940900001442,9.856729999999516,9.856729999999516,10.424137399997562,right,0.552470299997367,None,10.424358699994627,10.439956699992763,10.744155599997612,10.737504699995043,1,2024-02-19_12h05.35.273,stroop,2023.2.3,60.03363084098647,2024-02-19 12h05.46.228663 +0100,
verde,green,0,10,10,14,10.744155599997612,,,,,,,,,,,,,,,,10.737756699993042,10.744155599997612,10.744155599997612,11.274804699991364,left,0.5289229000045452,None,11.27503479999723,11.289880199998152,11.606595399993239,11.590153800003463,1,2024-02-19_12h05.35.273,stroop,2023.2.3,60.03363084098647,2024-02-19 12h05.46.228663 +0100,
verde,red,0,11,11,19,11.606595399993239,,,,,,,,,,,,,,,,11.590354100015247,11.606595399993239,11.606595399993239,12.074552000005497,right,0.46640589999151416,None,12.074899300001562,12.090008099999977,12.406772999995155,12.3903699000075,1,2024-02-19_12h05.35.273,stroop,2023.2.3,60.03363084098647,2024-02-19 12h05.46.228663 +0100,
rojo,red,0,12,12,4,12.406772999995155,,,,,,,,,,,,,,,,12.390587600006256,12.406772999995155,12.406772999995155,12.873769199999515,left,0.4551183999865316,None,12.87399930000538,12.889898800000083,13.206625499995425,13.190549599996302,1,2024-02-19_12h05.35.273,stroop,2023.2.3,60.03363084098647,2024-02-19 12h05.46.228663 +0100,
verde,red,0,13,13,15,13.206625499995425,,,,,,,,,,,,,,,,13.190765500010457,13.206625499995425,13.206625499995425,13.707239700015634,left,0.49735259998124093,None,13.707521000003908,13.72298089999822,14.039970100013306,14.023844900017139,1,2024-02-19_12h05.35.273,stroop,2023.2.3,60.03363084098647,2024-02-19 12h05.46.228663 +0100,
rojo,red,0,14,14,0,14.039970100013306,,,,,,,,,,,,,,,,14.024068200000329,14.039970100013306,14.039970100013306,14.623452200001338,left,0.574909499991918,None,14.62367629999062,14.639777600008529,14.956554900010815,14.94030479999492,1,2024-02-19_12h05.35.273,stroop,2023.2.3,60.03363084098647,2024-02-19 12h05.46.228663 +0100,
verde,green,0,15,15,10,14.956554900010815,,,,,,,,,,,,,,,,14.940528300008737,14.956554900010815,14.956554900010815,15.35719889999018,right,0.39070379998884164,None,15.357428599993,15.373148500017123,15.689809400006197,15.67344330000924,1,2024-02-19_12h05.35.273,stroop,2023.2.3,60.03363084098647,2024-02-19 12h05.46.228663 +0100,
rojo,red,0,16,16,2,15.689809400006197,,,,,,,,,,,,,,,,15.673720199993113,15.689809400006197,15.689809400006197,16.157082899997476,right,0.45560180000029504,None,16.157358399999794,16.173147900000913,16.48970050000935,16.473612700006925,1,2024-02-19_12h05.35.273,stroop,2023.2.3,60.03363084098647,2024-02-19 12h05.46.228663 +0100,
verde,red,0,17,17,16,16.48970050000935,,,,,,,,,,,,,,,,16.473833800002467,16.48970050000935,16.48970050000935,17.007934599998407,right,0.5165057000122033,None,17.00823120001587,17.02318910000031,17.339922999992268,17.32351670000935,1,2024-02-19_12h05.35.273,stroop,2023.2.3,60.03363084098647,2024-02-19 12h05.46.228663 +0100,
verde,green,0,18,18,11,17.339922999992268,,,,,,,,,,,,,,,,17.323875700007193,17.339922999992268,17.339922999992268,17.723867599997902,left,0.3669808999984525,None,17.72410910000326,17.73987409999245,18.056452099990565,18.040101999999024,1,2024-02-19_12h05.35.273,stroop,2023.2.3,60.03363084098647,2024-02-19 12h05.46.228663 +0100,
rojo,green,0,19,19,8,18.056452099990565,,,,,,,,,,,,,,,,18.040319099993212,18.056452099990565,18.056452099990565,18.47391100000823,left,0.40163189999293536,None,18.474133600015193,18.489753000001656,18.80646789999446,18.79007280000951,1,2024-02-19_12h05.35.273,stroop,2023.2.3,60.03363084098647,2024-02-19 12h05.46.228663 +0100,
rojo,red,1,0,20,1,18.80646789999446,,,,,,,,,,,,,,,,18.790287400013767,18.80646789999446,18.80646789999446,19.10843359999126,right,0.29994820000138134,None,19.10908369999379,19.122968400013633,19.4398349999974,19.423328300006688,1,2024-02-19_12h05.35.273,stroop,2023.2.3,60.03363084098647,2024-02-19 12h05.46.228663 +0100,
rojo,green,1,1,21,8,19.4398349999974,,,,,,,,,,,,,,,,19.4235531000013,19.4398349999974,19.4398349999974,19.824255400017137,left,0.37904589998652227,None,19.824500699993223,19.839541900000768,20.156306099990616,20.14007439999841,1,2024-02-19_12h05.35.273,stroop,2023.2.3,60.03363084098647,2024-02-19 12h05.46.228663 +0100,
verde,red,1,2,22,17,20.156306099990616,,,,,,,,,,,,,,,,20.14028690001578,20.156306099990616,20.156306099990616,20.507726900017587,right,0.3487829999940004,None,20.50803339999402,20.522876900009578,20.83982819999801,20.823410200013313,1,2024-02-19_12h05.35.273,stroop,2023.2.3,60.03363084098647,2024-02-19 12h05.46.228663 +0100,
verde,green,1,3,23,10,20.83982819999801,,,,,,,,,,,,,,,,20.82362340000691,20.83982819999801,20.83982819999801,21.223578400007682,left,0.3682797999936156,None,21.22382509999443,21.23945100000128,21.556393500010017,21.540064200002234,1,2024-02-19_12h05.35.273,stroop,2023.2.3,60.03363084098647,2024-02-19 12h05.46.228663 +0100,
rojo,red,1,4,24,0,21.556393500010017,,,,,,,,,,,,,,,,21.54027679999126,21.556393500010017,21.556393500010017,21.840367500000866,right,0.2732484000152908,None,21.84060930000851,21.85620400001062,22.173171700007515,22.156535899994196,1,2024-02-19_12h05.35.273,stroop,2023.2.3,60.03363084098647,2024-02-19 12h05.46.228663 +0100,
verde,red,1,5,25,16,22.173171700007515,,,,,,,,,,,,,,,,22.15674740000395,22.173171700007515,22.173171700007515,22.556830699992133,right,0.37985710002249107,None,22.55706680001458,22.572890200011898,22.889647000003606,22.873345900006825,1,2024-02-19_12h05.35.273,stroop,2023.2.3,60.03363084098647,2024-02-19 12h05.46.228663 +0100,
rojo,green,1,6,26,7,22.889647000003606,,,,,,,,,,,,,,,,22.873576400015736,22.889647000003606,22.889647000003606,23.256666200002655,left,0.3515728000202216,None,23.256896500010043,23.272894599998835,23.589505300013116,23.573196300014388,1,2024-02-19_12h05.35.273,stroop,2023.2.3,60.03363084098647,2024-02-19 12h05.46.228663 +0100,
verde,green,1,7,27,12,23.589505300013116,,,,,,,,,,,,,,,,23.573411999997916,23.589505300013116,23.589505300013116,24.00661090001813,left,0.4118224999983795,None,24.006912300013937,24.022664999996778,24.339643000013893,24.323170999996364,1,2024-02-19_12h05.35.273,stroop,2023.2.3,60.03363084098647,2024-02-19 12h05.46.228663 +0100,
rojo,green,1,8,28,9,24.339643000013893,,,,,,,,,,,,,,,,24.32347080000909,24.339643000013893,24.339643000013893,24.93977709999308,left,0.5946854999929201,None,24.940038100001402,24.95607069999096,25.27279700001236,25.256726099993102,1,2024-02-19_12h05.35.273,stroop,2023.2.3,60.03363084098647,2024-02-19 12h05.46.228663 +0100,
verde,green,1,9,29,13,25.27279700001236,,,,,,,,,,,,,,,,25.256949300004635,25.27279700001236,25.27279700001236,25.65669170001638,left,0.3769791999948211,None,25.656984000001103,25.672845499997493,25.989281799993478,25.973170200013556,1,2024-02-19_12h05.35.273,stroop,2023.2.3,60.03363084098647,2024-02-19 12h05.46.228663 +0100,
verde,red,1,10,30,19,25.989281799993478,,,,,,,,,,,,,,,,25.973387400008505,25.989281799993478,25.989281799993478,26.539860499993665,right,0.5400989000045229,None,26.540101999999024,26.556119999993825,26.872766000014963,26.856525200011674,1,2024-02-19_12h05.35.273,stroop,2023.2.3,60.03363084098647,2024-02-19 12h05.46.228663 +0100,
verde,red,1,11,31,18,26.872766000014963,,,,,,,,,,,,,,,,26.85675020000781,26.872766000014963,26.872766000014963,27.373309899994638,right,0.48436149998451583,None,27.37354040000355,27.389435799996136,27.705728400003863,27.689386800018838,1,2024-02-19_12h05.35.273,stroop,2023.2.3,60.03363084098647,2024-02-19 12h05.46.228663 +0100,
verde,red,1,12,32,15,27.705728400003863,,,,,,,,,,,,,,,,27.689613800001098,27.705728400003863,27.705728400003863,28.206459100008942,right,0.495918000000529,None,28.206703700008802,28.222638100007316,28.53949970001122,28.522886299993843,1,2024-02-19_12h05.35.273,stroop,2023.2.3,60.03363084098647,2024-02-19 12h05.46.228663 +0100,
rojo,green,1,13,33,6,28.53949970001122,,,,,,,,,,,,,,,,28.523112700000638,28.53949970001122,28.53949970001122,28.973208900017198,left,0.42080839999835007,None,28.97343070001807,28.98937319999095,29.3059801000054,29.28971830001683,1,2024-02-19_12h05.35.273,stroop,2023.2.3,60.03363084098647,2024-02-19 12h05.46.228663 +0100,
rojo,green,1,14,34,5,29.3059801000054,,,,,,,,,,,,,,,,29.289950000005774,29.3059801000054,29.3059801000054,29.589929400011897,left,0.2810884000209626,None,29.59016180000617,29.60591410001507,29.922702400013804,29.90628620001371,1,2024-02-19_12h05.35.273,stroop,2023.2.3,60.03363084098647,2024-02-19 12h05.46.228663 +0100,
rojo,red,1,15,35,2,29.922702400013804,,,,,,,,,,,,,,,,29.90650879999157,29.922702400013804,29.922702400013804,30.357050199992955,right,0.43323249998502433,None,30.35727969999425,30.372505800012732,30.68922780000139,30.67314470000565,1,2024-02-19_12h05.35.273,stroop,2023.2.3,60.03363084098647,2024-02-19 12h05.46.228663 +0100,
rojo,red,1,16,36,4,30.68922780000139,,,,,,,,,,,,,,,,30.673370900010923,30.68922780000139,30.68922780000139,31.056633000000147,right,0.36474369998904876,None,31.056884699995862,31.072362800012343,31.389149800001178,31.373048800014658,1,2024-02-19_12h05.35.273,stroop,2023.2.3,60.03363084098647,2024-02-19 12h05.46.228663 +0100,
verde,green,1,17,37,14,31.389149800001178,,,,,,,,,,,,,,,,31.373335600015707,31.389149800001178,31.389149800001178,31.77377970001544,left,0.38353630001074634,None,31.774063499993645,31.789043700002367,32.10576420000871,32.08938180000405,1,2024-02-19_12h05.35.273,stroop,2023.2.3,60.03363084098647,2024-02-19 12h05.46.228663 +0100,
verde,green,1,18,38,11,32.10576420000871,,,,,,,,,,,,,,,,32.089598199992906,32.10576420000871,32.10576420000871,32.37294460000703,left,0.26220219998504035,None,32.373182100011036,32.38895069999853,32.70566510001663,32.68950740000582,1,2024-02-19_12h05.35.273,stroop,2023.2.3,60.03363084098647,2024-02-19 12h05.46.228663 +0100,
rojo,red,1,19,39,3,32.70566510001663,,,,,,,,,,,,,,,,32.68972059999942,32.70566510001663,32.70566510001663,33.089938999997685,right,0.37153579998994246,None,33.09017270000186,33.10585739999078,33.42231610001181,33.40600700001232,1,2024-02-19_12h05.35.273,stroop,2023.2.3,60.03363084098647,2024-02-19 12h05.46.228663 +0100,
rojo,red,2,0,40,1,33.42231610001181,,,,,,,,,,,,,,,,33.406219199998304,33.42231610001181,33.42231610001181,33.78952560000471,right,0.35891560002346523,None,33.78975610001362,33.80581280001206,34.12240170000587,34.10638919999474,1,2024-02-19_12h05.35.273,stroop,2023.2.3,60.03363084098647,2024-02-19 12h05.46.228663 +0100,
rojo,green,2,1,41,6,34.12240170000587,,,,,,,,,,,,,,,,34.10661690001143,34.12240170000587,34.12240170000587,34.45620159999817,left,0.32811640002182685,None,34.4564486000163,34.472254799999064,34.78894900000887,34.77282370001194,1,2024-02-19_12h05.35.273,stroop,2023.2.3,60.03363084098647,2024-02-19 12h05.46.228663 +0100,
rojo,green,2,2,42,5,34.78894900000887,,,,,,,,,,,,,,,,34.773081399995135,34.78894900000887,34.78894900000887,35.22325880001881,left,0.42077289998997003,None,35.223488399991766,35.23913060000632,35.555818199994974,35.53938420000486,1,2024-02-19_12h05.35.273,stroop,2023.2.3,60.03363084098647,2024-02-19 12h05.46.228663 +0100,
verde,red,2,3,43,18,35.555818199994974,,,,,,,,,,,,,,,,35.539614200009964,35.555818199994974,35.555818199994974,35.922902799997246,right,0.3537951000034809,None,35.92320190000464,35.93903909999062,36.239127900014864,36.22381680001854,1,2024-02-19_12h05.35.273,stroop,2023.2.3,60.03363084098647,2024-02-19 12h05.46.228663 +0100,
rojo,red,2,4,44,4,36.239127900014864,,,,,,,,,,,,,,,,36.22404770000139,36.239127900014864,36.239127900014864,36.57329190001474,right,0.3222867000149563,None,36.57357539999066,36.58902529999614,36.9057385000051,36.88927780001541,1,2024-02-19_12h05.35.273,stroop,2023.2.3,60.03363084098647,2024-02-19 12h05.46.228663 +0100,
verde,red,2,5,45,15,36.9057385000051,,,,,,,,,,,,,,,,36.88950140000088,36.9057385000051,36.9057385000051,37.273102100007236,right,0.3599349999858532,None,37.273327300004894,37.28866980000748,37.605677200015634,37.58935739999288,1,2024-02-19_12h05.35.273,stroop,2023.2.3,60.03363084098647,2024-02-19 12h05.46.228663 +0100,
rojo,red,2,6,46,3,37.605677200015634,,,,,,,,,,,,,,,,37.58957320000627,37.605677200015634,37.605677200015634,37.923299100017175,right,0.31568080000579357,None,37.92362129999674,37.939085799996974,38.25570790001075,38.239300899993395,1,2024-02-19_12h05.35.273,stroop,2023.2.3,60.03363084098647,2024-02-19 12h05.46.228663 +0100,
verde,red,2,7,47,19,38.25570790001075,,,,,,,,,,,,,,,,38.23951600000146,38.25570790001075,38.25570790001075,38.623014500015415,right,0.35278260000632145,None,38.62324980000267,38.638826900016284,38.9553084000072,38.93939849999151,1,2024-02-19_12h05.35.273,stroop,2023.2.3,60.03363084098647,2024-02-19 12h05.46.228663 +0100,
rojo,red,2,8,48,0,38.9553084000072,,,,,,,,,,,,,,,,38.9396257000044,38.9553084000072,38.9553084000072,39.28999049999402,right,0.332023199996911,None,39.29032900001039,39.30562790000113,39.62232130000484,39.60594890001812,1,2024-02-19_12h05.35.273,stroop,2023.2.3,60.03363084098647,2024-02-19 12h05.46.228663 +0100,
verde,green,2,9,49,14,39.62232130000484,,,,,,,,,,,,,,,,39.60616690001916,39.62232130000484,39.62232130000484,40.20609359999071,left,0.5710886000015307,None,40.2063257000118,40.22226030001184,40.538861100008944,40.52264519999153,1,2024-02-19_12h05.35.273,stroop,2023.2.3,60.03363084098647,2024-02-19 12h05.46.228663 +0100,
verde,green,2,10,50,12,40.538861100008944,,,,,,,,,,,,,,,,40.522953000006964,40.538861100008944,40.538861100008944,40.80636010001763,left,0.2642035000026226,None,40.8066087999905,40.82204630001797,41.138690799998585,41.12257269999827,1,2024-02-19_12h05.35.273,stroop,2023.2.3,60.03363084098647,2024-02-19 12h05.46.228663 +0100,
verde,green,2,11,51,13,41.138690799998585,,,,,,,,,,,,,,,,41.122797599993646,41.138690799998585,41.138690799998585,41.406044200004544,left,0.2556291999935638,None,41.40627390000736,41.42214080001577,41.73857499999576,41.72244660000433,1,2024-02-19_12h05.35.273,stroop,2023.2.3,60.03363084098647,2024-02-19 12h05.46.228663 +0100,
verde,green,2,12,52,11,41.73857499999576,,,,,,,,,,,,,,,,41.722658899991075,41.73857499999576,41.73857499999576,42.07298590001301,left,0.33115370001178235,None,42.07321040000534,42.08860370001639,42.40546259999974,42.38877930000308,1,2024-02-19_12h05.35.273,stroop,2023.2.3,60.03363084098647,2024-02-19 12h05.46.228663 +0100,
rojo,green,2,13,53,8,42.40546259999974,,,,,,,,,,,,,,,,42.389000700000906,42.40546259999974,42.40546259999974,42.789234800002305,left,0.3673753999755718,None,42.78946980001638,42.80537660000846,43.12199220000184,43.10534209999605,1,2024-02-19_12h05.35.273,stroop,2023.2.3,60.03363084098647,2024-02-19 12h05.46.228663 +0100,
verde,red,2,14,54,16,43.12199220000184,,,,,,,,,,,,,,,,43.105559599993285,43.12199220000184,43.12199220000184,43.489239200018346,right,0.3626971999765374,None,43.48947410000255,43.505401000002166,43.82198199999402,43.805487500008894,1,2024-02-19_12h05.35.273,stroop,2023.2.3,60.03363084098647,2024-02-19 12h05.46.228663 +0100,
rojo,green,2,15,55,9,43.82198199999402,,,,,,,,,,,,,,,,43.80570640001679,43.82198199999402,43.82198199999402,44.122426799993264,right,0.29031040001427755,None,44.12266140000429,44.13859300001059,44.455370500014396,44.4390701999946,1,2024-02-19_12h05.35.273,stroop,2023.2.3,60.03363084098647,2024-02-19 12h05.46.228663 +0100,
rojo,red,2,16,56,2,44.455370500014396,,,,,,,,,,,,,,,,44.43928399999277,44.455370500014396,44.455370500014396,44.740317899995716,right,0.2829601999837905,None,44.7405684000114,44.75507839999045,45.072031899995636,45.05573930000537,1,2024-02-19_12h05.35.273,stroop,2023.2.3,60.03363084098647,2024-02-19 12h05.46.228663 +0100,
rojo,green,2,17,57,7,45.072031899995636,,,,,,,,,,,,,,,,45.05596980001428,45.072031899995636,45.072031899995636,45.25607269999455,right,0.1776106999896001,None,45.25636359999771,45.27204179999535,45.58872970001539,45.57250880001811,1,2024-02-19_12h05.35.273,stroop,2023.2.3,60.03363084098647,2024-02-19 12h05.46.228663 +0100,
,,,,,,45.58872970001539,,,,,,,,,,,,,,,,45.57273820001865,45.58872970001539,45.58872970001539,,,,,,,,,,,,,,,
