stim_word,stim_color,trial_loop.thisRepN,trial_loop.thisTrialN,trial_loop.thisN,trial_loop.thisIndex,thisRow.t,notes,welcome.started,welcome_txt.started,welcome.stopped,instructions.started,instructions_txt.started,key_resp.started,instructions.stopped,key_resp.keys,key_resp.rt,key_resp.duration,init_fix.started,circle.started,circle.stopped,init_fix.stopped,circles_routine.started,click.started,word.started,greencircle.started,redcircle.started,mouse.started,circles_routine.stopped,mouse.x,mouse.y,mouse.leftButton,mouse.midButton,mouse.rightButton,mouse.time,mouse.clicked_name,participant,date,expName,psychopyVersion,frameRate,expStart,
,,,,,,,,0.009337700001196936,0.034671900008106604,1.016975000005914,1.0169857000000775,1.033288500009803,1.033288500009803,1.9183630000043195,return,0.8686929999967106,None,,,,,,,,,,,,,,,,,,,1,2024-02-19_11h45.33.835,stroop,2023.2.3,60.12144532742946,2024-02-19 11h45.38.735599 +0100,
verde,red,0,0,0,19,2.9351318000117317,,,,,,,,,,,,1.9183983000111766,1.9336111000156961,2.9351318000117317,2.9171635000093374,,,,,,,,,,,,,,,1,2024-02-19_11h45.33.835,stroop,2023.2.3,60.12144532742946,2024-02-19 11h45.38.735599 +0100,
rojo,green,0,1,1,8,2.9351318000117317,,,,,,,,,,,,,,,,,,,,,,,,,,,,,,1,2024-02-19_11h45.33.835,stroop,2023.2.3,60.12144532742946,2024-02-19 11h45.38.735599 +0100,
rojo,green,0,2,2,5,2.9351318000117317,,,,,,,,,,,,,,,,,,,,,,,,,,,,,,1,2024-02-19_11h45.33.835,stroop,2023.2.3,60.12144532742946,2024-02-19 11h45.38.735599 +0100,
rojo,red,0,3,3,2,2.9351318000117317,,,,,,,,,,,,,,,,,,,,,,,,,,,,,,1,2024-02-19_11h45.33.835,stroop,2023.2.3,60.12144532742946,2024-02-19 11h45.38.735599 +0100,
verde,red,0,4,4,18,2.9351318000117317,,,,,,,,,,,,,,,,,,,,,,,,,,,,,,1,2024-02-19_11h45.33.835,stroop,2023.2.3,60.12144532742946,2024-02-19 11h45.38.735599 +0100,
verde,red,0,5,5,15,2.9351318000117317,,,,,,,,,,,,,,,,,,,,,,,,,,,,,,1,2024-02-19_11h45.33.835,stroop,2023.2.3,60.12144532742946,2024-02-19 11h45.38.735599 +0100,
verde,green,0,6,6,13,2.9351318000117317,,,,,,,,,,,,,,,,,,,,,,,,,,,,,,1,2024-02-19_11h45.33.835,stroop,2023.2.3,60.12144532742946,2024-02-19 11h45.38.735599 +0100,
verde,green,0,7,7,12,2.9351318000117317,,,,,,,,,,,,,,,,,,,,,,,,,,,,,,1,2024-02-19_11h45.33.835,stroop,2023.2.3,60.12144532742946,2024-02-19 11h45.38.735599 +0100,
verde,green,0,8,8,10,2.9351318000117317,,,,,,,,,,,,,,,,,,,,,,,,,,,,,,1,2024-02-19_11h45.33.835,stroop,2023.2.3,60.12144532742946,2024-02-19 11h45.38.735599 +0100,
rojo,red,0,9,9,1,2.9351318000117317,,,,,,,,,,,,,,,,,,,,,,,,,,,,,,1,2024-02-19_11h45.33.835,stroop,2023.2.3,60.12144532742946,2024-02-19 11h45.38.735599 +0100,
rojo,red,0,10,10,4,2.9351318000117317,,,,,,,,,,,,,,,,,,,,,,,,,,,,,,1,2024-02-19_11h45.33.835,stroop,2023.2.3,60.12144532742946,2024-02-19 11h45.38.735599 +0100,
rojo,red,0,11,11,0,2.9351318000117317,,,,,,,,,,,,,,,,,,,,,,,,,,,,,,1,2024-02-19_11h45.33.835,stroop,2023.2.3,60.12144532742946,2024-02-19 11h45.38.735599 +0100,
rojo,green,0,12,12,6,2.9351318000117317,,,,,,,,,,,,,,,,,,,,,,,,,,,,,,1,2024-02-19_11h45.33.835,stroop,2023.2.3,60.12144532742946,2024-02-19 11h45.38.735599 +0100,
verde,red,0,13,13,17,2.9351318000117317,,,,,,,,,,,,,,,,,,,,,,,,,,,,,,1,2024-02-19_11h45.33.835,stroop,2023.2.3,60.12144532742946,2024-02-19 11h45.38.735599 +0100,
verde,red,0,14,14,16,2.9351318000117317,,,,,,,,,,,,,,,,,,,,,,,,,,,,,,1,2024-02-19_11h45.33.835,stroop,2023.2.3,60.12144532742946,2024-02-19 11h45.38.735599 +0100,
rojo,green,0,15,15,9,2.9351318000117317,,,,,,,,,,,,,,,,,,,,,,,,,,,,,,1,2024-02-19_11h45.33.835,stroop,2023.2.3,60.12144532742946,2024-02-19 11h45.38.735599 +0100,
verde,green,0,16,16,14,2.9351318000117317,,,,,,,,,,,,,,,,,,,,,,,,,,,,,,1,2024-02-19_11h45.33.835,stroop,2023.2.3,60.12144532742946,2024-02-19 11h45.38.735599 +0100,
verde,green,0,17,17,11,2.9351318000117317,,,,,,,,,,,,,,,,,,,,,,,,,,,,,,1,2024-02-19_11h45.33.835,stroop,2023.2.3,60.12144532742946,2024-02-19 11h45.38.735599 +0100,
rojo,green,0,18,18,7,2.9351318000117317,,,,,,,,,,,,,,,,,,,,,,,,,,,,,,1,2024-02-19_11h45.33.835,stroop,2023.2.3,60.12144532742946,2024-02-19 11h45.38.735599 +0100,
rojo,red,0,19,19,3,2.9351318000117317,,,,,,,,,,,,,,,,,,,,,,,,,,,,,,1,2024-02-19_11h45.33.835,stroop,2023.2.3,60.12144532742946,2024-02-19 11h45.38.735599 +0100,
verde,green,1,0,20,13,2.9351318000117317,,,,,,,,,,,,,,,,,,,,,,,,,,,,,,1,2024-02-19_11h45.33.835,stroop,2023.2.3,60.12144532742946,2024-02-19 11h45.38.735599 +0100,
rojo,red,1,1,21,4,2.9351318000117317,,,,,,,,,,,,,,,,,,,,,,,,,,,,,,1,2024-02-19_11h45.33.835,stroop,2023.2.3,60.12144532742946,2024-02-19 11h45.38.735599 +0100,
verde,red,1,2,22,16,2.9351318000117317,,,,,,,,,,,,,,,,,,,,,,,,,,,,,,1,2024-02-19_11h45.33.835,stroop,2023.2.3,60.12144532742946,2024-02-19 11h45.38.735599 +0100,
rojo,red,1,3,23,2,2.9351318000117317,,,,,,,,,,,,,,,,,,,,,,,,,,,,,,1,2024-02-19_11h45.33.835,stroop,2023.2.3,60.12144532742946,2024-02-19 11h45.38.735599 +0100,
rojo,green,1,4,24,5,2.9351318000117317,,,,,,,,,,,,,,,,,,,,,,,,,,,,,,1,2024-02-19_11h45.33.835,stroop,2023.2.3,60.12144532742946,2024-02-19 11h45.38.735599 +0100,
verde,green,1,5,25,10,2.9351318000117317,,,,,,,,,,,,,,,,,,,,,,,,,,,,,,1,2024-02-19_11h45.33.835,stroop,2023.2.3,60.12144532742946,2024-02-19 11h45.38.735599 +0100,
verde,red,1,6,26,15,2.9351318000117317,,,,,,,,,,,,,,,,,,,,,,,,,,,,,,1,2024-02-19_11h45.33.835,stroop,2023.2.3,60.12144532742946,2024-02-19 11h45.38.735599 +0100,
rojo,green,1,7,27,6,2.9351318000117317,,,,,,,,,,,,,,,,,,,,,,,,,,,,,,1,2024-02-19_11h45.33.835,stroop,2023.2.3,60.12144532742946,2024-02-19 11h45.38.735599 +0100,
rojo,red,1,8,28,3,2.9351318000117317,,,,,,,,,,,,,,,,,,,,,,,,,,,,,,1,2024-02-19_11h45.33.835,stroop,2023.2.3,60.12144532742946,2024-02-19 11h45.38.735599 +0100,
verde,red,1,9,29,18,2.9351318000117317,,,,,,,,,,,,,,,,,,,,,,,,,,,,,,1,2024-02-19_11h45.33.835,stroop,2023.2.3,60.12144532742946,2024-02-19 11h45.38.735599 +0100,
rojo,green,1,10,30,9,2.9351318000117317,,,,,,,,,,,,,,,,,,,,,,,,,,,,,,1,2024-02-19_11h45.33.835,stroop,2023.2.3,60.12144532742946,2024-02-19 11h45.38.735599 +0100,
rojo,red,1,11,31,0,2.9351318000117317,,,,,,,,,,,,,,,,,,,,,,,,,,,,,,1,2024-02-19_11h45.33.835,stroop,2023.2.3,60.12144532742946,2024-02-19 11h45.38.735599 +0100,
rojo,red,1,12,32,1,2.9351318000117317,,,,,,,,,,,,,,,,,,,,,,,,,,,,,,1,2024-02-19_11h45.33.835,stroop,2023.2.3,60.12144532742946,2024-02-19 11h45.38.735599 +0100,
verde,red,1,13,33,17,2.9351318000117317,,,,,,,,,,,,,,,,,,,,,,,,,,,,,,1,2024-02-19_11h45.33.835,stroop,2023.2.3,60.12144532742946,2024-02-19 11h45.38.735599 +0100,
verde,green,1,14,34,12,2.9351318000117317,,,,,,,,,,,,,,,,,,,,,,,,,,,,,,1,2024-02-19_11h45.33.835,stroop,2023.2.3,60.12144532742946,2024-02-19 11h45.38.735599 +0100,
verde,green,1,15,35,14,2.9351318000117317,,,,,,,,,,,,,,,,,,,,,,,,,,,,,,1,2024-02-19_11h45.33.835,stroop,2023.2.3,60.12144532742946,2024-02-19 11h45.38.735599 +0100,
verde,red,1,16,36,19,2.9351318000117317,,,,,,,,,,,,,,,,,,,,,,,,,,,,,,1,2024-02-19_11h45.33.835,stroop,2023.2.3,60.12144532742946,2024-02-19 11h45.38.735599 +0100,
verde,green,1,17,37,11,2.9351318000117317,,,,,,,,,,,,,,,,,,,,,,,,,,,,,,1,2024-02-19_11h45.33.835,stroop,2023.2.3,60.12144532742946,2024-02-19 11h45.38.735599 +0100,
rojo,green,1,18,38,8,2.9351318000117317,,,,,,,,,,,,,,,,,,,,,,,,,,,,,,1,2024-02-19_11h45.33.835,stroop,2023.2.3,60.12144532742946,2024-02-19 11h45.38.735599 +0100,
rojo,green,1,19,39,7,2.9351318000117317,,,,,,,,,,,,,,,,,,,,,,,,,,,,,,1,2024-02-19_11h45.33.835,stroop,2023.2.3,60.12144532742946,2024-02-19 11h45.38.735599 +0100,
verde,red,2,0,40,19,2.9351318000117317,,,,,,,,,,,,,,,,,,,,,,,,,,,,,,1,2024-02-19_11h45.33.835,stroop,2023.2.3,60.12144532742946,2024-02-19 11h45.38.735599 +0100,
rojo,red,2,1,41,3,2.9351318000117317,,,,,,,,,,,,,,,,,,,,,,,,,,,,,,1,2024-02-19_11h45.33.835,stroop,2023.2.3,60.12144532742946,2024-02-19 11h45.38.735599 +0100,
verde,green,2,2,42,12,2.9351318000117317,,,,,,,,,,,,,,,,,,,,,,,,,,,,,,1,2024-02-19_11h45.33.835,stroop,2023.2.3,60.12144532742946,2024-02-19 11h45.38.735599 +0100,
rojo,red,2,3,43,2,2.9351318000117317,,,,,,,,,,,,,,,,,,,,,,,,,,,,,,1,2024-02-19_11h45.33.835,stroop,2023.2.3,60.12144532742946,2024-02-19 11h45.38.735599 +0100,
rojo,red,2,4,44,1,2.9351318000117317,,,,,,,,,,,,,,,,,,,,,,,,,,,,,,1,2024-02-19_11h45.33.835,stroop,2023.2.3,60.12144532742946,2024-02-19 11h45.38.735599 +0100,
verde,green,2,5,45,13,2.9351318000117317,,,,,,,,,,,,,,,,,,,,,,,,,,,,,,1,2024-02-19_11h45.33.835,stroop,2023.2.3,60.12144532742946,2024-02-19 11h45.38.735599 +0100,
rojo,green,2,6,46,6,2.9351318000117317,,,,,,,,,,,,,,,,,,,,,,,,,,,,,,1,2024-02-19_11h45.33.835,stroop,2023.2.3,60.12144532742946,2024-02-19 11h45.38.735599 +0100,
verde,green,2,7,47,10,2.9351318000117317,,,,,,,,,,,,,,,,,,,,,,,,,,,,,,1,2024-02-19_11h45.33.835,stroop,2023.2.3,60.12144532742946,2024-02-19 11h45.38.735599 +0100,
verde,red,2,8,48,15,2.9351318000117317,,,,,,,,,,,,,,,,,,,,,,,,,,,,,,1,2024-02-19_11h45.33.835,stroop,2023.2.3,60.12144532742946,2024-02-19 11h45.38.735599 +0100,
rojo,green,2,9,49,5,2.9351318000117317,,,,,,,,,,,,,,,,,,,,,,,,,,,,,,1,2024-02-19_11h45.33.835,stroop,2023.2.3,60.12144532742946,2024-02-19 11h45.38.735599 +0100,
verde,red,2,10,50,17,2.9351318000117317,,,,,,,,,,,,,,,,,,,,,,,,,,,,,,1,2024-02-19_11h45.33.835,stroop,2023.2.3,60.12144532742946,2024-02-19 11h45.38.735599 +0100,
verde,red,2,11,51,16,2.9351318000117317,,,,,,,,,,,,,,,,,,,,,,,,,,,,,,1,2024-02-19_11h45.33.835,stroop,2023.2.3,60.12144532742946,2024-02-19 11h45.38.735599 +0100,
verde,green,2,12,52,14,2.9351318000117317,,,,,,,,,,,,,,,,,,,,,,,,,,,,,,1,2024-02-19_11h45.33.835,stroop,2023.2.3,60.12144532742946,2024-02-19 11h45.38.735599 +0100,
verde,red,2,13,53,18,2.9351318000117317,,,,,,,,,,,,,,,,,,,,,,,,,,,,,,1,2024-02-19_11h45.33.835,stroop,2023.2.3,60.12144532742946,2024-02-19 11h45.38.735599 +0100,
rojo,red,2,14,54,4,2.9351318000117317,,,,,,,,,,,,,,,,,,,,,,,,,,,,,,1,2024-02-19_11h45.33.835,stroop,2023.2.3,60.12144532742946,2024-02-19 11h45.38.735599 +0100,
rojo,red,2,15,55,0,2.9351318000117317,,,,,,,,,,,,,,,,,,,,,,,,,,,,,,1,2024-02-19_11h45.33.835,stroop,2023.2.3,60.12144532742946,2024-02-19 11h45.38.735599 +0100,
rojo,green,2,16,56,8,2.9351318000117317,,,,,,,,,,,,,,,,,,,,,,,,,,,,,,1,2024-02-19_11h45.33.835,stroop,2023.2.3,60.12144532742946,2024-02-19 11h45.38.735599 +0100,
rojo,green,2,17,57,9,2.9351318000117317,,,,,,,,,,,,,,,,,,,,,,,,,,,,,,1,2024-02-19_11h45.33.835,stroop,2023.2.3,60.12144532742946,2024-02-19 11h45.38.735599 +0100,
rojo,green,2,18,58,7,2.9351318000117317,,,,,,,,,,,,,,,,,,,,,,,,,,,,,,1,2024-02-19_11h45.33.835,stroop,2023.2.3,60.12144532742946,2024-02-19 11h45.38.735599 +0100,
verde,green,2,19,59,11,2.9351318000117317,,,,,,,,,,,,,,,,,,,,,,,,,,,,,,1,2024-02-19_11h45.33.835,stroop,2023.2.3,60.12144532742946,2024-02-19 11h45.38.735599 +0100,
,,,,,,,,,,,,,,,,,,,,,,2.9289046000048984,2.9351318000117317,2.9351318000117317,2.9351318000117317,2.9351318000117317,0.01054759998805821,7.607081399997696,[-0.5270833333333333],[0.025925925925925925],[1],[0],[0],[4.677715599973453],['greencircle'],1,2024-02-19_11h45.33.835,stroop,2023.2.3,60.12144532742946,2024-02-19 11h45.38.735599 +0100,
